Data from ref_spectrum_Absorbance__0__00.txt Node

Date: Mon Sep 23 13:57:32 CEST 2024
User: Admon
Spectrometer: MAYP115816
Trigger mode: 0
Integration Time (sec): 2.000000E-1
Scans to average: 10
Electric dark correction enabled: true
Nonlinearity correction enabled: true
Boxcar width: 5
XAxis mode: Wavelengths
Number of Pixels in Spectrum: 2068
>>>>>Begin Spectral Data<<<<<
198.914	-0.09
199.384	-0.06
199.855	-0.02
200.325	0.01
200.796	0.02
201.266	0.03
201.737	0.04
202.207	0.04
202.677	0.04
203.147	0.05
203.618	0.05
204.088	0.06
204.558	0.06
205.028	0.07
205.498	0.06
205.968	0.06
206.439	0.06
206.909	0.06
207.379	0.06
207.849	0.06
208.319	0.06
208.789	0.06
209.258	0.06
209.728	0.06
210.198	0.06
210.668	0.06
211.138	0.06
211.608	0.06
212.077	0.05
212.547	0.05
213.017	0.06
213.486	0.05
213.956	0.05
214.426	0.05
214.895	0.05
215.365	0.05
215.834	0.04
216.304	0.04
216.773	0.04
217.243	0.04
217.712	0.04
218.181	0.04
218.651	0.04
219.12	0.04
219.589	0.03
220.058	0.03
220.528	0.03
220.997	0.03
221.466	0.03
221.935	0.03
222.404	0.03
222.873	0.03
223.342	0.03
223.812	0.02
224.281	0.02
224.749	0.03
225.218	0.02
225.687	0.02
226.156	0.02
226.625	0.02
227.094	0.02
227.563	0.02
228.031	0.02
228.5	0.02
228.969	0.02
229.438	0.02
229.906	0.02
230.375	0.02
230.844	0.03
231.312	0.03
231.781	0.03
232.249	0.03
232.718	0.03
233.186	0.03
233.655	0.02
234.123	0.02
234.591	0.02
235.06	0.02
235.528	0.01
235.996	0.01
236.465	0.01
236.933	0.01
237.401	0.01
237.869	0.01
238.337	0.01
238.805	0.02
239.274	0.02
239.742	0.02
240.21	0.02
240.678	0.02
241.146	0.03
241.614	0.03
242.081	0.03
242.549	0.03
243.017	0.03
243.485	0.03
243.953	0.02
244.421	0.02
244.888	0.02
245.356	0.02
245.824	0.02
246.291	0.02
246.759	0.02
247.227	0.02
247.694	0.02
248.162	0.02
248.629	0.02
249.097	0.03
249.564	0.03
250.032	0.03
250.499	0.04
250.967	0.04
251.434	0.03
251.901	0.04
252.369	0.04
252.836	0.03
253.303	0.03
253.77	0.03
254.237	0.03
254.705	0.03
255.172	0.03
255.639	0.03
256.106	0.03
256.573	0.04
257.04	0.03
257.507	0.03
257.974	0.04
258.441	0.04
258.908	0.04
259.375	0.04
259.841	0.04
260.308	0.04
260.775	0.04
261.242	0.04
261.709	0.04
262.175	0.05
262.642	0.05
263.109	0.05
263.575	0.05
264.042	0.05
264.508	0.06
264.975	0.05
265.441	0.06
265.908	0.06
266.374	0.06
266.841	0.06
267.307	0.06
267.773	0.06
268.24	0.06
268.706	0.07
269.172	0.07
269.639	0.07
270.105	0.07
270.571	0.07
271.037	0.07
271.503	0.07
271.969	0.07
272.435	0.08
272.902	0.08
273.368	0.08
273.834	0.08
274.3	0.09
274.765	0.09
275.231	0.1
275.697	0.1
276.163	0.1
276.629	0.11
277.095	0.11
277.56	0.11
278.026	0.11
278.492	0.12
278.958	0.12
279.423	0.13
279.889	0.13
280.354	0.14
280.82	0.15
281.286	0.15
281.751	0.16
282.217	0.17
282.682	0.19
283.147	0.2
283.613	0.21
284.078	0.22
284.544	0.24
285.009	0.25
285.474	0.26
285.939	0.27
286.405	0.27
286.87	0.28
287.335	0.28
287.8	0.29
288.265	0.29
288.73	0.29
289.195	0.29
289.66	0.29
290.125	0.29
290.59	0.29
291.055	0.29
291.52	0.29
291.985	0.29
292.45	0.29
292.915	0.29
293.38	0.29
293.844	0.29
294.309	0.29
294.774	0.29
295.239	0.29
295.703	0.29
296.168	0.29
296.632	0.29
297.097	0.29
297.562	0.29
298.026	0.29
298.491	0.29
298.955	0.28
299.419	0.28
299.884	0.28
300.348	0.28
300.813	0.28
301.277	0.28
301.741	0.28
302.205	0.28
302.67	0.28
303.134	0.28
303.598	0.28
304.062	0.28
304.526	0.28
304.99	0.27
305.454	0.27
305.919	0.27
306.383	0.27
306.847	0.27
307.31	0.27
307.774	0.27
308.238	0.27
308.702	0.27
309.166	0.27
309.63	0.27
310.094	0.27
310.557	0.27
311.021	0.26
311.485	0.26
311.948	0.26
312.412	0.26
312.876	0.26
313.339	0.26
313.803	0.26
314.266	0.26
314.73	0.26
315.193	0.26
315.657	0.25
316.12	0.25
316.584	0.25
317.047	0.25
317.51	0.25
317.973	0.25
318.437	0.25
318.9	0.24
319.363	0.24
319.826	0.24
320.29	0.24
320.753	0.24
321.216	0.24
321.679	0.24
322.142	0.24
322.605	0.24
323.068	0.24
323.531	0.24
323.994	0.24
324.457	0.24
324.92	0.24
325.382	0.24
325.845	0.24
326.308	0.24
326.771	0.24
327.233	0.24
327.696	0.24
328.159	0.24
328.622	0.24
329.084	0.24
329.547	0.24
330.009	0.24
330.472	0.24
330.934	0.24
331.397	0.24
331.859	0.24
332.322	0.24
332.784	0.24
333.246	0.24
333.709	0.24
334.171	0.24
334.633	0.24
335.096	0.24
335.558	0.24
336.02	0.24
336.482	0.24
336.944	0.25
337.406	0.25
337.868	0.25
338.331	0.25
338.793	0.25
339.255	0.25
339.717	0.25
340.178	0.25
340.64	0.25
341.102	0.25
341.564	0.25
342.026	0.25
342.488	0.25
342.949	0.25
343.411	0.25
343.873	0.25
344.335	0.25
344.796	0.25
345.258	0.25
345.719	0.25
346.181	0.25
346.643	0.25
347.104	0.25
347.566	0.25
348.027	0.25
348.488	0.25
348.95	0.25
349.411	0.25
349.873	0.25
350.334	0.25
350.795	0.25
351.256	0.25
351.718	0.25
352.179	0.25
352.64	0.25
353.101	0.25
353.562	0.25
354.023	0.25
354.484	0.25
354.945	0.25
355.406	0.25
355.867	0.25
356.328	0.25
356.789	0.25
357.25	0.25
357.711	0.25
358.172	0.25
358.633	0.26
359.093	0.26
359.554	0.26
360.015	0.26
360.476	0.26
360.936	0.26
361.397	0.26
361.858	0.26
362.318	0.26
362.779	0.26
363.239	0.26
363.7	0.26
364.16	0.26
364.621	0.26
365.081	0.26
365.541	0.27
366.002	0.27
366.462	0.27
366.922	0.27
367.383	0.27
367.843	0.27
368.303	0.27
368.763	0.27
369.223	0.27
369.684	0.27
370.144	0.27
370.604	0.27
371.064	0.28
371.524	0.28
371.984	0.28
372.444	0.28
372.904	0.28
373.363	0.28
373.823	0.28
374.283	0.28
374.743	0.28
375.203	0.28
375.663	0.28
376.122	0.28
376.582	0.28
377.042	0.29
377.501	0.29
377.961	0.29
378.42	0.29
378.88	0.29
379.34	0.29
379.799	0.29
380.259	0.29
380.718	0.29
381.177	0.3
381.637	0.3
382.096	0.3
382.555	0.3
383.015	0.3
383.474	0.3
383.933	0.3
384.393	0.3
384.852	0.31
385.311	0.31
385.77	0.31
386.229	0.31
386.688	0.31
387.147	0.31
387.606	0.31
388.065	0.32
388.524	0.32
388.983	0.32
389.442	0.32
389.901	0.32
390.36	0.32
390.819	0.32
391.277	0.32
391.736	0.33
392.195	0.33
392.654	0.33
393.112	0.33
393.571	0.33
394.03	0.33
394.488	0.33
394.947	0.33
395.405	0.33
395.864	0.33
396.322	0.33
396.781	0.34
397.239	0.34
397.698	0.34
398.156	0.34
398.614	0.34
399.073	0.34
399.531	0.34
399.989	0.34
400.447	0.34
400.905	0.34
401.364	0.34
401.822	0.34
402.28	0.34
402.738	0.34
403.196	0.34
403.654	0.34
404.112	0.34
404.57	0.34
405.028	0.34
405.486	0.33
405.944	0.33
406.402	0.33
406.859	0.33
407.317	0.33
407.775	0.33
408.233	0.33
408.691	0.33
409.148	0.33
409.606	0.33
410.064	0.33
410.521	0.32
410.979	0.32
411.436	0.32
411.894	0.32
412.351	0.32
412.809	0.32
413.266	0.32
413.724	0.32
414.181	0.31
414.638	0.31
415.096	0.31
415.553	0.31
416.01	0.31
416.467	0.31
416.925	0.3
417.382	0.3
417.839	0.3
418.296	0.3
418.753	0.3
419.21	0.3
419.667	0.3
420.124	0.29
420.581	0.29
421.038	0.29
421.495	0.29
421.952	0.29
422.409	0.29
422.866	0.29
423.322	0.28
423.779	0.28
424.236	0.28
424.693	0.28
425.149	0.28
425.606	0.28
426.063	0.27
426.519	0.27
426.976	0.27
427.433	0.27
427.889	0.27
428.346	0.27
428.802	0.27
429.258	0.27
429.715	0.26
430.171	0.26
430.628	0.26
431.084	0.26
431.54	0.26
431.997	0.26
432.453	0.26
432.909	0.26
433.365	0.26
433.821	0.25
434.277	0.25
434.734	0.25
435.19	0.25
435.646	0.25
436.102	0.25
436.558	0.25
437.014	0.25
437.47	0.25
437.925	0.25
438.381	0.25
438.837	0.24
439.293	0.24
439.749	0.24
440.205	0.24
440.66	0.24
441.116	0.24
441.572	0.24
442.027	0.24
442.483	0.24
442.939	0.24
443.394	0.24
443.85	0.23
444.305	0.23
444.761	0.23
445.216	0.23
445.672	0.23
446.127	0.23
446.582	0.23
447.038	0.23
447.493	0.23
447.948	0.23
448.403	0.23
448.859	0.23
449.314	0.23
449.769	0.23
450.224	0.23
450.679	0.23
451.134	0.22
451.589	0.22
452.044	0.22
452.499	0.22
452.954	0.22
453.409	0.22
453.864	0.22
454.319	0.22
454.774	0.22
455.229	0.22
455.684	0.22
456.138	0.22
456.593	0.22
457.048	0.22
457.503	0.22
457.957	0.22
458.412	0.22
458.866	0.22
459.321	0.22
459.776	0.22
460.23	0.22
460.685	0.22
461.139	0.22
461.593	0.22
462.048	0.22
462.502	0.22
462.957	0.22
463.411	0.22
463.865	0.22
464.319	0.21
464.774	0.21
465.228	0.21
465.682	0.21
466.136	0.21
466.59	0.21
467.044	0.21
467.499	0.21
467.953	0.21
468.407	0.21
468.861	0.21
469.315	0.21
469.768	0.21
470.222	0.21
470.676	0.21
471.13	0.21
471.584	0.21
472.038	0.21
472.491	0.21
472.945	0.21
473.399	0.21
473.852	0.21
474.306	0.21
474.76	0.21
475.213	0.21
475.667	0.21
476.12	0.21
476.574	0.21
477.027	0.21
477.481	0.21
477.934	0.21
478.388	0.21
478.841	0.22
479.294	0.22
479.748	0.22
480.201	0.22
480.654	0.22
481.107	0.22
481.561	0.22
482.014	0.22
482.467	0.22
482.92	0.22
483.373	0.22
483.826	0.22
484.279	0.22
484.732	0.22
485.185	0.22
485.638	0.22
486.091	0.22
486.544	0.22
486.997	0.22
487.449	0.23
487.902	0.23
488.355	0.23
488.808	0.23
489.26	0.23
489.713	0.23
490.166	0.23
490.618	0.23
491.071	0.23
491.523	0.24
491.976	0.24
492.429	0.24
492.881	0.24
493.333	0.24
493.786	0.24
494.238	0.24
494.691	0.24
495.143	0.24
495.595	0.24
496.048	0.25
496.5	0.25
496.952	0.25
497.404	0.25
497.856	0.25
498.309	0.25
498.761	0.25
499.213	0.25
499.665	0.25
500.117	0.26
500.569	0.26
501.021	0.26
501.473	0.26
501.925	0.26
502.377	0.26
502.828	0.26
503.28	0.27
503.732	0.27
504.184	0.27
504.636	0.27
505.087	0.27
505.539	0.27
505.991	0.27
506.442	0.28
506.894	0.28
507.345	0.28
507.797	0.28
508.249	0.28
508.7	0.28
509.151	0.28
509.603	0.28
510.054	0.29
510.506	0.29
510.957	0.29
511.408	0.29
511.86	0.29
512.311	0.29
512.762	0.29
513.213	0.29
513.665	0.29
514.116	0.29
514.567	0.29
515.018	0.29
515.469	0.29
515.92	0.29
516.371	0.3
516.822	0.3
517.273	0.3
517.724	0.3
518.175	0.3
518.626	0.3
519.076	0.3
519.527	0.3
519.978	0.3
520.429	0.3
520.88	0.3
521.33	0.3
521.781	0.3
522.232	0.3
522.682	0.3
523.133	0.3
523.583	0.3
524.034	0.3
524.484	0.3
524.935	0.3
525.385	0.3
525.836	0.3
526.286	0.3
526.736	0.3
527.187	0.3
527.637	0.3
528.087	0.3
528.538	0.29
528.988	0.29
529.438	0.29
529.888	0.29
530.338	0.29
530.788	0.29
531.238	0.29
531.688	0.29
532.139	0.29
532.589	0.28
533.038	0.28
533.488	0.28
533.938	0.28
534.388	0.28
534.838	0.28
535.288	0.28
535.738	0.27
536.187	0.27
536.637	0.27
537.087	0.27
537.537	0.27
537.986	0.27
538.436	0.27
538.885	0.27
539.335	0.26
539.785	0.26
540.234	0.26
540.684	0.26
541.133	0.26
541.582	0.25
542.032	0.25
542.481	0.25
542.931	0.25
543.38	0.25
543.829	0.24
544.278	0.24
544.728	0.24
545.177	0.24
545.626	0.24
546.075	0.23
546.524	0.23
546.973	0.23
547.422	0.23
547.871	0.22
548.32	0.22
548.769	0.22
549.218	0.22
549.667	0.22
550.116	0.21
550.565	0.21
551.014	0.21
551.463	0.21
551.911	0.21
552.36	0.21
552.809	0.21
553.258	0.2
553.706	0.2
554.155	0.2
554.603	0.2
555.052	0.2
555.501	0.2
555.949	0.19
556.398	0.19
556.846	0.19
557.294	0.19
557.743	0.19
558.191	0.19
558.64	0.18
559.088	0.18
559.536	0.18
559.985	0.18
560.433	0.17
560.881	0.17
561.329	0.17
561.777	0.17
562.225	0.17
562.674	0.17
563.122	0.16
563.57	0.16
564.018	0.16
564.466	0.16
564.914	0.16
565.362	0.16
565.809	0.16
566.257	0.15
566.705	0.15
567.153	0.15
567.601	0.15
568.048	0.15
568.496	0.15
568.944	0.14
569.392	0.14
569.839	0.14
570.287	0.14
570.734	0.14
571.182	0.14
571.63	0.14
572.077	0.14
572.525	0.13
572.972	0.13
573.419	0.13
573.867	0.13
574.314	0.13
574.761	0.13
575.209	0.13
575.656	0.13
576.103	0.12
576.551	0.12
576.998	0.12
577.445	0.12
577.892	0.12
578.339	0.12
578.786	0.12
579.233	0.12
579.68	0.12
580.127	0.12
580.574	0.12
581.021	0.12
581.468	0.12
581.915	0.12
582.362	0.11
582.809	0.11
583.255	0.11
583.702	0.11
584.149	0.11
584.596	0.11
585.042	0.11
585.489	0.11
585.936	0.11
586.382	0.11
586.829	0.11
587.275	0.11
587.722	0.11
588.168	0.11
588.615	0.11
589.061	0.11
589.508	0.11
589.954	0.11
590.4	0.1
590.847	0.1
591.293	0.1
591.739	0.1
592.185	0.1
592.632	0.1
593.078	0.1
593.524	0.1
593.97	0.09
594.416	0.09
594.862	0.09
595.308	0.09
595.754	0.09
596.2	0.09
596.646	0.09
597.092	0.09
597.538	0.09
597.984	0.09
598.43	0.09
598.876	0.09
599.321	0.09
599.767	0.09
600.213	0.09
600.659	0.09
601.104	0.09
601.55	0.09
601.995	0.09
602.441	0.09
602.887	0.09
603.332	0.09
603.778	0.09
604.223	0.09
604.668	0.09
605.114	0.09
605.559	0.09
606.005	0.09
606.45	0.09
606.895	0.09
607.341	0.09
607.786	0.09
608.231	0.09
608.676	0.09
609.121	0.09
609.566	0.09
610.012	0.09
610.457	0.09
610.902	0.09
611.347	0.09
611.792	0.09
612.237	0.09
612.682	0.09
613.127	0.09
613.571	0.09
614.016	0.09
614.461	0.09
614.906	0.09
615.351	0.09
615.795	0.09
616.24	0.09
616.685	0.09
617.129	0.09
617.574	0.09
618.019	0.09
618.463	0.09
618.908	0.09
619.352	0.09
619.797	0.09
620.241	0.09
620.686	0.09
621.13	0.09
621.574	0.09
622.019	0.09
622.463	0.09
622.907	0.09
623.352	0.09
623.796	0.09
624.24	0.09
624.684	0.09
625.128	0.09
625.572	0.1
626.016	0.1
626.461	0.1
626.905	0.1
627.349	0.1
627.793	0.1
628.236	0.1
628.68	0.1
629.124	0.1
629.568	0.1
630.012	0.1
630.456	0.1
630.9	0.1
631.343	0.1
631.787	0.1
632.231	0.11
632.674	0.11
633.118	0.11
633.562	0.11
634.005	0.11
634.449	0.11
634.892	0.11
635.336	0.11
635.779	0.11
636.223	0.11
636.666	0.11
637.109	0.11
637.553	0.11
637.996	0.11
638.439	0.12
638.883	0.12
639.326	0.12
639.769	0.12
640.212	0.12
640.655	0.12
641.099	0.12
641.542	0.12
641.985	0.12
642.428	0.12
642.871	0.12
643.314	0.12
643.757	0.12
644.2	0.13
644.643	0.13
645.085	0.13
645.528	0.13
645.971	0.13
646.414	0.13
646.857	0.13
647.299	0.14
647.742	0.14
648.185	0.14
648.627	0.14
649.07	0.14
649.513	0.14
649.955	0.15
650.398	0.15
650.84	0.15
651.283	0.15
651.725	0.15
652.168	0.16
652.61	0.16
653.052	0.16
653.495	0.16
653.937	0.14
654.379	0.11
654.821	0.11
655.264	0.11
655.706	0.12
656.148	0.12
656.59	0.12
657.032	0.12
657.474	0.12
657.916	0.12
658.358	0.12
658.8	0.15
659.242	0.18
659.684	0.19
660.126	0.19
660.568	0.19
661.01	0.2
661.452	0.2
661.894	0.2
662.335	0.2
662.777	0.21
663.219	0.21
663.661	0.21
664.102	0.21
664.544	0.21
664.985	0.21
665.427	0.21
665.869	0.22
666.31	0.22
666.752	0.22
667.193	0.22
667.634	0.22
668.076	0.22
668.517	0.23
668.959	0.23
669.4	0.23
669.841	0.23
670.282	0.23
670.724	0.24
671.165	0.24
671.606	0.24
672.047	0.24
672.488	0.24
672.929	0.25
673.37	0.25
673.811	0.25
674.252	0.25
674.693	0.26
675.134	0.26
675.575	0.26
676.016	0.26
676.457	0.26
676.898	0.27
677.339	0.27
677.78	0.27
678.22	0.27
678.661	0.27
679.102	0.27
679.542	0.27
679.983	0.27
680.424	0.27
680.864	0.27
681.305	0.27
681.745	0.27
682.186	0.27
682.626	0.28
683.067	0.28
683.507	0.28
683.948	0.27
684.388	0.27
684.828	0.27
685.269	0.27
685.709	0.27
686.149	0.27
686.589	0.27
687.029	0.27
687.47	0.27
687.91	0.27
688.35	0.27
688.79	0.27
689.23	0.27
689.67	0.27
690.11	0.27
690.55	0.27
690.99	0.27
691.43	0.27
691.87	0.26
692.31	0.26
692.749	0.26
693.189	0.26
693.629	0.26
694.069	0.26
694.508	0.26
694.948	0.26
695.388	0.26
695.827	0.26
696.267	0.26
696.706	0.26
697.146	0.26
697.586	0.26
698.025	0.26
698.464	0.26
698.904	0.26
699.343	0.26
699.783	0.26
700.222	0.26
700.661	0.26
701.101	0.25
701.54	0.25
701.979	0.25
702.418	0.25
702.857	0.25
703.297	0.25
703.736	0.24
704.175	0.24
704.614	0.24
705.053	0.23
705.492	0.23
705.931	0.23
706.37	0.23
706.809	0.23
707.248	0.22
707.687	0.22
708.125	0.22
708.564	0.22
709.003	0.22
709.442	0.22
709.88	0.21
710.319	0.21
710.758	0.21
711.196	0.21
711.635	0.2
712.074	0.2
712.512	0.2
712.951	0.2
713.389	0.2
713.828	0.2
714.266	0.19
714.705	0.19
715.143	0.19
715.581	0.19
716.02	0.19
716.458	0.19
716.896	0.19
717.334	0.19
717.773	0.19
718.211	0.18
718.649	0.18
719.087	0.18
719.525	0.18
719.963	0.18
720.401	0.17
720.839	0.17
721.277	0.17
721.715	0.17
722.153	0.17
722.591	0.17
723.029	0.16
723.467	0.16
723.905	0.16
724.342	0.16
724.78	0.16
725.218	0.16
725.656	0.16
726.093	0.16
726.531	0.15
726.969	0.15
727.406	0.15
727.844	0.15
728.281	0.15
728.719	0.14
729.156	0.14
729.594	0.14
730.031	0.14
730.469	0.14
730.906	0.13
731.343	0.13
731.781	0.13
732.218	0.13
732.655	0.13
733.092	0.13
733.53	0.13
733.967	0.13
734.404	0.13
734.841	0.13
735.278	0.12
735.715	0.12
736.152	0.12
736.589	0.12
737.026	0.12
737.463	0.12
737.9	0.12
738.337	0.11
738.774	0.11
739.211	0.11
739.647	0.11
740.084	0.11
740.521	0.11
740.958	0.11
741.394	0.1
741.831	0.1
742.268	0.1
742.704	0.1
743.141	0.1
743.577	0.1
744.014	0.1
744.45	0.09
744.887	0.09
745.323	0.09
745.76	0.09
746.196	0.09
746.632	0.09
747.069	0.09
747.505	0.09
747.941	0.09
748.378	0.09
748.814	0.09
749.25	0.09
749.686	0.09
750.122	0.09
750.558	0.09
750.994	0.08
751.43	0.08
751.866	0.08
752.302	0.08
752.738	0.08
753.174	0.08
753.61	0.08
754.046	0.08
754.482	0.08
754.918	0.08
755.354	0.08
755.789	0.08
756.225	0.08
756.661	0.08
757.096	0.08
757.532	0.08
757.968	0.08
758.403	0.08
758.839	0.08
759.274	0.08
759.71	0.08
760.145	0.08
760.581	0.08
761.016	0.08
761.452	0.08
761.887	0.08
762.322	0.08
762.758	0.08
763.193	0.08
763.628	0.08
764.063	0.08
764.499	0.08
764.934	0.07
765.369	0.07
765.804	0.07
766.239	0.07
766.674	0.07
767.109	0.07
767.544	0.07
767.979	0.07
768.414	0.07
768.849	0.07
769.284	0.07
769.719	0.07
770.154	0.07
770.588	0.07
771.023	0.07
771.458	0.07
771.893	0.07
772.327	0.07
772.762	0.06
773.197	0.06
773.631	0.06
774.066	0.06
774.5	0.06
774.935	0.06
775.369	0.06
775.804	0.06
776.238	0.06
776.673	0.06
777.107	0.06
777.541	0.06
777.976	0.06
778.41	0.06
778.844	0.06
779.279	0.06
779.713	0.06
780.147	0.06
780.581	0.06
781.015	0.06
781.449	0.06
781.883	0.06
782.317	0.06
782.751	0.06
783.185	0.06
783.619	0.06
784.053	0.06
784.487	0.06
784.921	0.06
785.355	0.06
785.789	0.06
786.223	0.06
786.656	0.06
787.09	0.06
787.524	0.06
787.957	0.06
788.391	0.06
788.825	0.06
789.258	0.06
789.692	0.06
790.125	0.06
790.559	0.06
790.992	0.06
791.426	0.06
791.859	0.06
792.293	0.06
792.726	0.05
793.159	0.05
793.593	0.05
794.026	0.05
794.459	0.05
794.892	0.05
795.326	0.05
795.759	0.05
796.192	0.05
796.625	0.05
797.058	0.06
797.491	0.06
797.924	0.06
798.357	0.05
798.79	0.05
799.223	0.05
799.656	0.05
800.089	0.05
800.522	0.05
800.955	0.05
801.387	0.05
801.82	0.06
802.253	0.06
802.686	0.06
803.118	0.06
803.551	0.06
803.984	0.06
804.416	0.06
804.849	0.06
805.281	0.06
805.714	0.06
806.146	0.06
806.579	0.06
807.011	0.06
807.444	0.06
807.876	0.06
808.308	0.06
808.741	0.06
809.173	0.06
809.605	0.06
810.037	0.06
810.47	0.06
810.902	0.06
811.334	0.06
811.766	0.06
812.198	0.06
812.63	0.06
813.062	0.06
813.494	0.07
813.926	0.07
814.358	0.07
814.79	0.07
815.222	0.07
815.654	0.07
816.086	0.07
816.518	0.07
816.949	0.07
817.381	0.07
817.813	0.07
818.245	0.07
818.676	0.07
819.108	0.07
819.54	0.07
819.971	0.07
820.403	0.07
820.834	0.07
821.266	0.07
821.697	0.07
822.129	0.07
822.56	0.07
822.991	0.07
823.423	0.07
823.854	0.07
824.286	0.07
824.717	0.07
825.148	0.07
825.579	0.07
826.01	0.07
826.442	0.07
826.873	0.07
827.304	0.07
827.735	0.07
828.166	0.07
828.597	0.07
829.028	0.07
829.459	0.07
829.89	0.07
830.321	0.07
830.752	0.07
831.183	0.07
831.613	0.07
832.044	0.07
832.475	0.08
832.906	0.08
833.336	0.08
833.767	0.08
834.198	0.08
834.628	0.08
835.059	0.08
835.49	0.08
835.92	0.08
836.351	0.09
836.781	0.09
837.212	0.09
837.642	0.09
838.072	0.09
838.503	0.09
838.933	0.09
839.364	0.09
839.794	0.09
840.224	0.09
840.654	0.1
841.085	0.1
841.515	0.1
841.945	0.1
842.375	0.1
842.805	0.1
843.235	0.1
843.665	0.1
844.095	0.11
844.525	0.11
844.955	0.11
845.385	0.11
845.815	0.11
846.245	0.11
846.675	0.11
847.105	0.12
847.534	0.12
847.964	0.12
848.394	0.12
848.824	0.12
849.253	0.12
849.683	0.12
850.112	0.12
850.542	0.12
850.972	0.12
851.401	0.12
851.831	0.12
852.26	0.12
852.69	0.12
853.119	0.12
853.548	0.13
853.978	0.13
854.407	0.13
854.836	0.13
855.266	0.13
855.695	0.13
856.124	0.13
856.553	0.13
856.983	0.13
857.412	0.13
857.841	0.13
858.27	0.13
858.699	0.13
859.128	0.14
859.557	0.14
859.986	0.14
860.415	0.14
860.844	0.14
861.273	0.14
861.702	0.14
862.13	0.14
862.559	0.14
862.988	0.15
863.417	0.15
863.845	0.15
864.274	0.15
864.703	0.15
865.131	0.15
865.56	0.15
865.989	0.15
866.417	0.15
866.846	0.16
867.274	0.16
867.703	0.16
868.131	0.16
868.559	0.16
868.988	0.16
869.416	0.16
869.844	0.16
870.273	0.16
870.701	0.17
871.129	0.17
871.557	0.17
871.986	0.17
872.414	0.17
872.842	0.17
873.27	0.17
873.698	0.17
874.126	0.18
874.554	0.18
874.982	0.18
875.41	0.18
875.838	0.18
876.266	0.18
876.694	0.18
877.122	0.18
877.549	0.18
877.977	0.19
878.405	0.19
878.833	0.19
879.26	0.19
879.688	0.19
880.116	0.19
880.543	0.19
880.971	0.2
881.399	0.2
881.826	0.2
882.254	0.2
882.681	0.21
883.109	0.21
883.536	0.21
883.963	0.21
884.391	0.21
884.818	0.21
885.245	0.21
885.673	0.21
886.1	0.21
886.527	0.21
886.954	0.22
887.381	0.22
887.809	0.22
888.236	0.22
888.663	0.22
889.09	0.22
889.517	0.22
889.944	0.22
890.371	0.22
890.798	0.23
891.225	0.23
891.652	0.23
892.078	0.23
892.505	0.24
892.932	0.24
893.359	0.24
893.786	0.24
894.212	0.25
894.639	0.25
895.066	0.25
895.492	0.25
895.919	0.25
896.346	0.25
896.772	0.25
897.199	0.26
897.625	0.26
898.052	0.26
898.478	0.26
898.904	0.26
899.331	0.26
899.757	0.26
900.183	0.26
900.61	0.26
901.036	0.26
901.462	0.26
901.888	0.26
902.315	0.26
902.741	0.26
903.167	0.26
903.593	0.26
904.019	0.26
904.445	0.26
904.871	0.26
905.297	0.26
905.723	0.26
906.149	0.26
906.575	0.26
907.001	0.26
907.427	0.26
907.852	0.26
908.278	0.26
908.704	0.26
909.13	0.26
909.555	0.26
909.981	0.26
910.407	0.26
910.832	0.26
911.258	0.26
911.684	0.26
912.109	0.26
912.535	0.26
912.96	0.26
913.386	0.27
913.811	0.27
914.236	0.27
914.662	0.27
915.087	0.27
915.512	0.27
915.938	0.27
916.363	0.27
916.788	0.27
917.213	0.27
917.639	0.27
918.064	0.27
918.489	0.27
918.914	0.27
919.339	0.27
919.764	0.27
920.189	0.27
920.614	0.27
921.039	0.27
921.464	0.26
921.889	0.26
922.314	0.26
922.738	0.26
923.163	0.26
923.588	0.26
924.013	0.26
924.437	0.26
924.862	0.26
925.287	0.26
925.711	0.26
926.136	0.26
926.561	0.25
926.985	0.25
927.41	0.25
927.834	0.25
928.259	0.25
928.683	0.25
929.108	0.25
929.532	0.25
929.956	0.25
930.381	0.26
930.805	0.26
931.229	0.26
931.653	0.26
932.078	0.26
932.502	0.26
932.926	0.25
933.35	0.25
933.774	0.25
934.198	0.25
934.622	0.25
935.046	0.25
935.47	0.25
935.894	0.25
936.318	0.24
936.742	0.24
937.166	0.24
937.59	0.24
938.014	0.24
938.437	0.24
938.861	0.24
939.285	0.24
939.709	0.24
940.132	0.24
940.556	0.24
940.98	0.24
941.403	0.24
941.827	0.24
942.25	0.24
942.674	0.24
943.097	0.24
943.521	0.24
943.944	0.24
944.368	0.24
944.791	0.24
945.214	0.23
945.638	0.23
946.061	0.23
946.484	0.23
946.907	0.23
947.331	0.23
947.754	0.22
948.177	0.22
948.6	0.22
949.023	0.22
949.446	0.22
949.869	0.21
950.292	0.21
950.715	0.21
951.138	0.21
951.561	0.21
951.984	0.21
952.407	0.21
952.83	0.21
953.252	0.21
953.675	0.21
954.098	0.21
954.521	0.21
954.943	0.21
955.366	0.21
955.789	0.21
956.211	0.21
956.634	0.21
957.056	0.21
957.479	0.21
957.902	0.21
958.324	0.21
958.746	0.21
959.169	0.21
959.591	0.21
960.014	0.21
960.436	0.21
960.858	0.21
961.281	0.21
961.703	0.21
962.125	0.21
962.547	0.21
962.969	0.21
963.391	0.2
963.814	0.2
964.236	0.2
964.658	0.2
965.08	0.2
965.502	0.2
965.924	0.2
966.346	0.2
966.768	0.2
967.189	0.2
967.611	0.2
968.033	0.2
968.455	0.2
968.877	0.2
969.298	0.19
969.72	0.19
970.142	0.19
970.563	0.19
970.985	0.19
971.407	0.19
971.828	0.19
972.25	0.18
972.671	0.18
973.093	0.18
973.514	0.18
973.936	0.18
974.357	0.18
974.778	0.17
975.2	0.17
975.621	0.17
976.042	0.17
976.464	0.17
976.885	0.17
977.306	0.17
977.727	0.17
978.148	0.17
978.57	0.17
978.991	0.16
979.412	0.16
979.833	0.16
980.254	0.16
980.675	0.16
981.096	0.16
981.517	0.15
981.937	0.15
982.358	0.15
982.779	0.15
983.2	0.15
983.621	0.14
984.042	0.14
984.462	0.14
984.883	0.14
985.304	0.14
985.724	0.14
986.145	0.13
986.565	0.13
986.986	0.13
987.407	0.13
987.827	0.13
988.248	0.13
988.668	0.13
989.088	0.13
989.509	0.13
989.929	0.13
990.35	0.12
990.77	0.12
991.19	0.12
991.61	0.12
992.031	0.12
992.451	0.12
992.871	0.12
993.291	0.12
993.711	0.12
994.131	0.12
994.551	0.12
994.971	0.12
995.391	0.12
995.811	0.12
996.231	0.12
996.651	0.12
997.071	0.12
997.491	0.12
997.911	0.11
998.331	0.11
998.75	0.11
999.17	0.11
999.59	0.11
1000.009	0.11
1000.429	0.11
1000.849	0.11
1001.268	0.11
1001.688	0.11
1002.107	0.11
1002.527	0.11
1002.946	0.11
1003.366	0.11
1003.785	0.11
1004.205	0.11
1004.624	0.11
1005.044	0.11
1005.463	0.11
1005.882	0.11
1006.301	0.11
1006.721	0.11
1007.14	0.11
1007.559	0.11
1007.978	0.11
1008.397	0.11
1008.816	0.11
1009.235	0.1
1009.655	0.1
1010.074	0.1
1010.492	0.1
1010.911	0.1
1011.33	0.1
1011.749	0.09
1012.168	0.09
1012.587	0.09
1013.006	0.09
1013.425	0.09
1013.843	0.09
1014.262	0.08
1014.681	0.08
1015.099	0.08
1015.518	0.08
1015.937	0.08
1016.355	0.08
1016.774	0.08
1017.192	0.08
1017.611	0.08
1018.029	0.08
1018.448	0.08
1018.866	0.08
1019.285	0.08
1019.703	0.08
1020.121	0.08
1020.54	0.08
1020.958	0.08
1021.376	0.08
1021.794	0.08
1022.213	0.08
1022.631	0.08
1023.049	0.08
1023.467	0.08
1023.885	0.08
1024.303	0.08
1024.721	0.08
1025.139	0.08
1025.557	0.08
1025.975	0.08
1026.393	0.08
1026.811	0.08
1027.229	0.08
1027.647	0.08
1028.065	0.08
1028.482	0.08
1028.9	0.08
1029.318	0.08
1029.735	0.08
1030.153	0.08
1030.571	0.08
1030.988	0.08
1031.406	0.08
1031.823	0.08
1032.241	0.08
1032.659	0.08
1033.076	0.08
1033.493	0.08
1033.911	0.08
1034.328	0.08
1034.746	0.08
1035.163	0.08
1035.58	0.08
1035.997	0.07
1036.415	0.07
1036.832	0.07
1037.249	0.07
1037.666	0.07
1038.083	0.07
1038.501	0.07
1038.918	0.07
1039.335	0.07
1039.752	0.07
1040.169	0.07
1040.586	0.07
1041.003	0.08
1041.419	0.08
1041.836	0.08
1042.253	0.08
1042.67	0.08
1043.087	0.08
1043.504	0.08
1043.92	0.08
1044.337	0.08
1044.754	0.08
1045.17	0.07
1045.587	0.07
1046.004	0.07
1046.42	0.07
1046.837	0.07
1047.253	0.07
1047.67	0.07
1048.086	0.07
1048.503	0.07
1048.919	0.07
1049.335	0.06
1049.752	0.06
1050.168	0.06
1050.584	0.06
1051.001	0.06
1051.417	0.06
1051.833	0.06
1052.249	0.06
1052.665	0.06
1053.081	0.06
1053.497	0.06
1053.914	0.06
1054.33	0.06
1054.746	0.06
1055.162	0.06
1055.578	0.05
1055.993	0.05
1056.409	0.05
1056.825	0.05
1057.241	0.05
1057.657	0.05
1058.073	0.05
1058.488	0.05
1058.904	0.05
1059.32	0.05
1059.736	0.04
1060.151	0.04
1060.567	0.04
1060.982	0.04
1061.398	0.04
1061.813	0.04
1062.229	0.04
1062.644	0.04
1063.06	0.04
1063.475	0.04
1063.891	0.04
1064.306	0.04
1064.721	0.04
1065.137	0.04
1065.552	0.04
1065.967	0.04
1066.382	0.04
1066.798	0.04
1067.213	0.04
1067.628	0.04
1068.043	0.04
1068.458	0.04
1068.873	0.04
1069.288	0.04
1069.703	0.04
1070.118	0.04
1070.533	0.04
1070.948	0.04
1071.363	0.04
1071.778	0.04
1072.193	0.04
1072.607	0.04
1073.022	0.04
1073.437	0.04
1073.852	0.04
1074.266	0.04
1074.681	0.04
1075.096	0.04
1075.51	0.04
1075.925	0.04
1076.339	0.04
1076.754	0.04
1077.168	0.04
1077.583	0.03
1077.997	0.03
1078.412	0.03
1078.826	0.03
1079.24	0.03
1079.655	0.03
1080.069	0.03
1080.483	0.03
1080.897	0.03
1081.312	0.03
1081.726	0.03
1082.14	0.03
1082.554	0.03
1082.968	0.02
1083.382	0.02
1083.796	0.02
1084.21	0.02
1084.624	0.02
1085.038	0.02
1085.452	0.02
1085.866	0.01
1086.28	0.01
1086.694	0.01
1087.108	0.01
1087.521	0.01
1087.935	0.01
1088.349	0
1088.763	0
1089.176	0
1089.59	-0
1090.004	-0
1090.417	-0
1090.831	-0
1091.244	-0
1091.658	-0.01
1092.071	-0.01
1092.485	-0.01
1092.898	-0.01
1093.312	-0.01
1093.725	-0.01
1094.138	-0.01
1094.552	-0.01
1094.965	-0.01
1095.378	-0.01
1095.791	-0.01
1096.205	-0.01
1096.618	-0.01
1097.031	-0.01
1097.444	-0.01
1097.857	-0.01
1098.27	-0.01
1098.683	-0.01
1099.096	-0.01
1099.509	-0.01
1099.922	-0.01
1100.335	-0.01
1100.748	-0.01
1101.161	-0.01
1101.574	-0.01
1101.986	-0.01
1102.399	-0.01
1102.812	-0.01
1103.225	-0.01
1103.637	-0.02
1104.05	-0.02
1104.463	-0.02
1104.875	-0.02
1105.288	-0.02
1105.7	-0.02
1106.113	-0.02
1106.525	-0.02
1106.938	-0.02
1107.35	-0.02
1107.763	-0.02
1108.175	-0.02
1108.588	-0.02
1109	-0.03
1109.412	-0.03
1109.824	-0.03
1110.237	-0.03
1110.649	-0.03
1111.061	-0.02
